Folder: AutoPloyPlot/Example Date/TGA Me (part 3)

File: !$YN042.txt
                                                                04.12.2024 15:33
________________________________________________________________________________

Curve Name:
  !$YN042
  Sample Weight
Curve Values:
          Index              t             Ts             Tr          Value
                           [s]           [°C]           [°C]            [%]
              0              0         39.951         25.000        101.534
             32             32         43.919         30.333        103.759
             64             64         48.747         35.667        104.008
             96             96         53.635         41.000        104.178
            128            128         58.567         46.333        104.306
            160            160         63.528         51.667        104.413
            192            192         68.475         57.000        104.506
            224            224         73.193         62.333        104.593
            256            256         78.661         67.667        104.662
            288            288         83.984         73.000        104.743
            320            320         89.299         78.333        104.824
            352            352         94.632         83.667        104.907
            384            384         99.972         89.000        104.986
            416            416        105.320         94.333        105.068
            448            448        110.698         99.667        105.145
            480            480        116.084        105.000        105.226
            512            512        121.496        110.333        105.304
            544            544        126.910        115.667        105.379
            576            576        132.335        121.000        105.456
            608            608        137.768        126.333         105.53
            640            640        143.199        131.667        105.603
            672            672        148.657        137.000        105.675
            704            704        154.128        142.333        105.743
            736            736        159.589        147.667        105.809
            768            768        165.063        153.000        105.874
            800            800        170.545        158.333        105.935
            832            832        176.028        163.667        105.995
            864            864        181.509        169.000        106.048
            896            896        186.988        174.333        106.098
            928            928        192.491        179.667        106.146
            960            960        197.977        185.000        106.185
            992            992        203.469        190.333        106.221
           1024           1024        208.955        195.667        106.247
           1056           1056        214.442        201.000        106.268
           1088           1088        219.951        206.333        106.282
           1120           1120        225.455        211.667        106.285
           1152           1152        230.966        217.000        106.285
           1184           1184        236.469        222.333        106.278
           1216           1216        241.966        227.667        106.267
           1248           1248        247.457        233.000         106.25
           1280           1280        252.953        238.333        106.231
           1312           1312        258.456        243.667        106.207
           1344           1344        263.939        249.000        106.178
           1376           1376        269.432        254.333        106.145
           1408           1408        274.932        259.667        106.104
           1440           1440        280.427        265.000        106.057
           1472           1472        285.900        270.333        105.996
           1504           1504        291.390        275.667        105.925
           1536           1536        296.872        281.000        105.843
           1568           1568        302.337        286.333        105.753
           1600           1600        307.821        291.667        105.656
           1632           1632        313.292        297.000        105.554
           1664           1664        318.758        302.333        105.453
           1696           1696        324.233        307.667        105.353
           1728           1728        329.694        313.000        105.255
           1760           1760        335.174        318.333        105.152
           1792           1792        340.638        323.667        105.042
           1824           1824        346.077        329.000        104.909
           1856           1856        351.545        334.333        104.747
           1888           1888        357.007        339.667        104.554
           1920           1920        362.475        345.000        104.318
           1952           1952        367.938        350.333        104.034
           1984           1984        373.389        355.667         103.69
           2016           2016        378.852        361.000        103.269
           2048           2048        384.325        366.333        102.748
           2080           2080        389.790        371.667        102.101
           2112           2112        395.282        377.000        101.277
           2144           2144        400.795        382.333        100.215
           2176           2176        406.279        387.667        98.8131
           2208           2208        411.702        393.000        96.9024
           2240           2240        417.027        398.333        94.1892
           2272           2272        422.419        403.667        90.2842
           2304           2304        427.833        409.000        84.9044
           2336           2336        433.251        414.333        77.8962
           2368           2368        438.690        419.667        69.2308
           2400           2400        444.138        425.000        59.1975
           2432           2432        449.582        430.333        48.3634
           2464           2464        455.063        435.667        37.4759
           2496           2496        460.537        441.000        27.4998
           2528           2528        466.048        446.333        19.4213
           2560           2560        471.573        451.667        13.9073
           2592           2592        477.112        457.000        10.9999
           2624           2624        482.670        462.333        9.86116
           2656           2656        488.202        467.667        9.53868
           2688           2688        493.618        473.000          9.473
           2720           2720        499.029        478.333        9.45977
           2752           2752        504.420        483.667        9.46719
           2784           2784        509.811        489.000        9.48313
           2816           2816        515.198        494.333        9.50442
           2848           2848        520.593        499.667        9.53007
           2880           2880        525.985        505.000        9.55844
           2912           2912        531.361        510.333        9.58831
           2944           2944        536.760        515.667        9.61305
           2976           2976        542.148        521.000        9.63883
           3008           3008        547.548        526.333        9.66045
           3040           3040        552.946        531.667        9.68133
           3072           3072        558.347        537.000        9.69375
           3104           3104        563.766        542.333        9.70321
           3136           3136        569.163        547.667        9.70862

Results:
  Step	-94.3259 %
  	-6.1312 mg
  Onset	422.49 °C
  Inflect. Pt.	449.07 °C
  Endset	468.69 °C
  Midpoint	444.91 °C
  Angle Midpoint	445.64 °C

Sample:
  YN042, 6.5000 mg

________________________________________________________________________________
Not signed                                                        STARe SW 16.40

File: !$YN045.txt
                                                                05.12.2024 20:04
________________________________________________________________________________

Curve Name:
  !$YN045
  Sample Weight
Curve Values:
          Index              t             Ts             Tr          Value
                           [s]           [°C]           [°C]            [%]
              0              0         33.488         25.000        99.5804
             32             32         37.877         30.333        100.816
             64             64         43.047         35.667        100.953
             96             96         48.182         41.000        101.052
            128            128         53.320         46.333        101.117
            160            160         58.501         51.667        101.179
            192            192         63.673         57.000        101.233
            224            224         68.875         62.333        101.294
            256            256         74.080         67.667        101.352
            288            288         79.222         73.000        101.393
            320            320         83.773         78.333        101.446
            352            352         89.250         83.667        101.465
            384            384         94.879         89.000        101.495
            416            416        100.382         94.333        101.525
            448            448        105.854         99.667        101.557
            480            480        111.314        105.000         101.59
            512            512        116.786        110.333        101.624
            544            544        122.226        115.667        101.657
            576            576        127.698        121.000        101.692
            608            608        133.160        126.333        101.728
            640            640        138.627        131.667        101.761
            672            672        144.090        137.000        101.799
            704            704        149.576        142.333        101.835
            736            736        155.051        147.667        101.871
            768            768        160.527        153.000        101.908
            800            800        166.017        158.333         101.94
            832            832        171.501        163.667        101.975
            864            864        176.981        169.000        102.006
            896            896        182.486        174.333        102.038
            928            928        187.984        179.667        102.066
            960            960        193.487        185.000        102.095
            992            992        198.986        190.333        102.122
           1024           1024        204.470        195.667        102.144
           1056           1056        209.971        201.000        102.164
           1088           1088        215.488        206.333        102.179
           1120           1120        220.983        211.667        102.192
           1152           1152        226.484        217.000        102.198
           1184           1184        231.983        222.333        102.199
           1216           1216        237.489        227.667        102.198
           1248           1248        242.984        233.000        102.192
           1280           1280        248.479        238.333        102.176
           1312           1312        253.970        243.667        102.158
           1344           1344        259.461        249.000        102.137
           1376           1376        264.968        254.333        102.106
           1408           1408        270.450        259.667        102.067
           1440           1440        275.932        265.000         102.02
           1472           1472        281.416        270.333        101.964
           1504           1504        286.890        275.667        101.892
           1536           1536        292.358        281.000        101.814
           1568           1568        297.850        286.333        101.722
           1600           1600        303.327        291.667        101.625
           1632           1632        308.802        297.000        101.524
           1664           1664        314.267        302.333        101.415
           1696           1696        319.729        307.667        101.315
           1728           1728        325.193        313.000        101.218
           1760           1760        330.668        318.333        101.128
           1792           1792        336.120        323.667        101.045
           1824           1824        341.589        329.000        100.954
           1856           1856        347.037        334.333        100.855
           1888           1888        352.501        339.667        100.738
           1920           1920        357.942        345.000          100.6
           1952           1952        363.404        350.333        100.441
           1984           1984        368.845        355.667        100.249
           2016           2016        374.308        361.000        100.013
           2048           2048        379.758        366.333        99.7208
           2080           2080        385.212        371.667        99.3607
           2112           2112        390.659        377.000        98.9016
           2144           2144        396.107        382.333        98.3085
           2176           2176        401.553        387.667         97.514
           2208           2208        406.983        393.000        96.4237
           2240           2240        412.425        398.333        94.8686
           2272           2272        417.856        403.667        92.5915
           2304           2304        423.286        409.000        89.3263
           2336           2336        428.722        414.333        84.7603
           2368           2368        434.129        419.667        78.7337
           2400           2400        439.558        425.000        71.2501
           2432           2432        444.991        430.333         62.399
           2464           2464        450.416        435.667        52.5859
           2496           2496        455.874        441.000         42.186
           2528           2528        461.353        446.333        31.7592
           2560           2560        466.857        451.667         22.153
           2592           2592        472.423        457.000        14.2657
           2624           2624        477.997        462.333        8.81899
           2656           2656        483.607        467.667        5.86654
           2688           2688        489.177        473.000        4.75702
           2720           2720        494.747        478.333        4.48087
           2752           2752        500.309        483.667        4.44214
           2784           2784        505.789        489.000        4.43782
           2816           2816        511.271        494.333        4.44892
           2848           2848        516.732        499.667        4.46051
           2880           2880        522.175        505.000        4.47478
           2912           2912        527.611        510.333        4.49186
           2944           2944        533.046        515.667        4.50489
           2976           2976        538.466        521.000        4.52205
           3008           3008        543.873        526.333        4.53429
           3040           3040        549.272        531.667         4.5489
           3072           3072        554.684        537.000        4.56384
           3104           3104        560.072        542.333        4.56905
           3136           3136        565.480        547.667        4.57521

Results:
  Step	-95.1037 %
  	-11.0035 mg
  Onset	426.22 °C
  Inflect. Pt.	456.38 °C
  Endset	475.48 °C
  Midpoint	450.25 °C
  Angle Midpoint	450.94 °C

Sample:
  YN045, 11.5700 mg

________________________________________________________________________________
Not signed                                                        STARe SW 16.40

File: !$YN046.txt
                                                                05.12.2024 20:05
________________________________________________________________________________

Curve Name:
  !$YN046
  Sample Weight
Curve Values:
          Index              t             Ts             Tr          Value
                           [s]           [°C]           [°C]            [%]
              0              0         35.413         25.000         100.26
             32             32         39.412         30.333        101.748
             64             64         44.265         35.667        101.911
             96             96         49.182         41.000        102.025
            128            128         54.103         46.333        102.113
            160            160         59.107         51.667        102.189
            192            192         64.160         57.000        102.256
            224            224         69.257         62.333        102.317
            256            256         74.357         67.667        102.373
            288            288         79.347         73.000        102.427
            320            320         83.963         78.333        102.484
            352            352         89.668         83.667        102.522
            384            384         95.159         89.000        102.563
            416            416        100.595         94.333        102.607
            448            448        106.004         99.667        102.658
            480            480        111.435        105.000        102.702
            512            512        116.877        110.333        102.747
            544            544        122.314        115.667        102.795
            576            576        127.755        121.000        102.843
            608            608        133.209        126.333        102.892
            640            640        138.667        131.667        102.938
            672            672        144.144        137.000        102.987
            704            704        149.619        142.333        103.038
            736            736        155.082        147.667        103.081
            768            768        160.567        153.000        103.122
            800            800        166.055        158.333        103.168
            832            832        171.544        163.667        103.209
            864            864        177.032        169.000        103.252
            896            896        182.534        174.333        103.291
            928            928        188.029        179.667         103.33
            960            960        193.531        185.000        103.366
            992            992        199.031        190.333          103.4
           1024           1024        204.526        195.667        103.427
           1056           1056        210.032        201.000        103.454
           1088           1088        215.544        206.333        103.477
           1120           1120        221.046        211.667         103.49
           1152           1152        226.553        217.000        103.504
           1184           1184        232.050        222.333         103.51
           1216           1216        237.553        227.667        103.511
           1248           1248        243.064        233.000        103.504
           1280           1280        248.555        238.333        103.496
           1312           1312        254.053        243.667        103.478
           1344           1344        259.551        249.000        103.455
           1376           1376        265.038        254.333        103.425
           1408           1408        270.537        259.667         103.39
           1440           1440        276.024        265.000        103.343
           1472           1472        281.503        270.333        103.291
           1504           1504        286.995        275.667        103.231
           1536           1536        292.476        281.000        103.157
           1568           1568        297.955        286.333        103.063
           1600           1600        303.415        291.667        102.962
           1632           1632        308.894        297.000        102.847
           1664           1664        314.372        302.333         102.73
           1696           1696        319.835        307.667         102.61
           1728           1728        325.302        313.000        102.492
           1760           1760        330.760        318.333        102.374
           1792           1792        336.229        323.667        102.251
           1824           1824        341.681        329.000        102.112
           1856           1856        347.150        334.333        101.949
           1888           1888        352.613        339.667        101.745
           1920           1920        358.079        345.000        101.507
           1952           1952        363.543        350.333        101.218
           1984           1984        369.005        355.667        100.862
           2016           2016        374.455        361.000         100.43
           2048           2048        379.914        366.333        99.9013
           2080           2080        385.364        371.667        99.2412
           2112           2112        390.836        377.000        98.4184
           2144           2144        396.255        382.333        97.3773
           2176           2176        401.693        387.667        96.0456
           2208           2208        407.115        393.000         94.307
           2240           2240        412.556        398.333        92.0007
           2272           2272        417.998        403.667        88.8741
           2304           2304        423.424        409.000        84.7481
           2336           2336        428.872        414.333         79.483
           2368           2368        434.321        419.667        73.0283
           2400           2400        439.758        425.000        65.6243
           2432           2432        445.213        430.333        57.4335
           2464           2464        450.655        435.667         48.628
           2496           2496        456.137        441.000        39.4427
           2528           2528        461.604        446.333        30.2764
           2560           2560        467.111        451.667        21.6424
           2592           2592        472.623        457.000         14.325
           2624           2624        478.188        462.333         9.1331
           2656           2656        483.754        467.667        6.40133
           2688           2688        489.310        473.000        5.58082
           2720           2720        494.887        478.333        5.47777
           2752           2752        500.337        483.667         5.4714
           2784           2784        505.788        489.000        5.47505
           2816           2816        511.205        494.333         5.4825
           2848           2848        516.614        499.667        5.49822
           2880           2880        522.013        505.000        5.51524
           2912           2912        527.400        510.333          5.534
           2944           2944        532.786        515.667        5.55441
           2976           2976        538.179        521.000        5.57062
           3008           3008        543.567        526.333        5.58478
           3040           3040        548.965        531.667        5.59943
           3072           3072        554.352        537.000        5.60608
           3104           3104        559.754        542.333        5.61447
           3136           3136        565.147        547.667        5.62119

Results:
  Step	-95.1033 %
  	-9.1965 mg
  Onset	420.23 °C
  Inflect. Pt.	454.77 °C
  Endset	476.09 °C
  Midpoint	447.35 °C
  Angle Midpoint	448.16 °C

Sample:
  YN046, 9.6700 mg

________________________________________________________________________________
Not signed                                                        STARe SW 16.40