Folder: AutoPloyPlot/Example Date/TGA Me (part 2)

File: !$YN039.txt
                                                                04.12.2024 15:29
________________________________________________________________________________

Curve Name:
  !$YN039
  Sample Weight
Curve Values:
          Index              t             Ts             Tr          Value
                           [s]           [°C]           [°C]            [%]
              0              0         39.946         25.000        99.9787
             32             32         43.923         30.333        101.739
             64             64         48.761         35.667        101.945
             96             96         53.640         41.000         102.09
            128            128         58.597         46.333        102.204
            160            160         63.593         51.667          102.3
            192            192         68.667         57.000        102.383
            224            224         73.773         62.333        102.466
            256            256         78.917         67.667        102.543
            288            288         84.110         73.000        102.618
            320            320         89.300         78.333        102.687
            352            352         94.406         83.667        102.752
            384            384         99.159         89.000        102.815
            416            416        104.736         94.333        102.848
            448            448        110.281         99.667         102.89
            480            480        115.748        105.000        102.939
            512            512        121.208        110.333         102.99
            544            544        126.661        115.667        103.045
            576            576        132.117        121.000        103.103
            608            608        137.573        126.333        103.161
            640            640        143.033        131.667         103.22
            672            672        148.496        137.000         103.28
            704            704        153.968        142.333        103.337
            736            736        159.425        147.667        103.398
            768            768        164.910        153.000        103.455
            800            800        170.401        158.333        103.512
            832            832        175.890        163.667        103.569
            864            864        181.368        169.000        103.625
            896            896        186.872        174.333         103.68
            928            928        192.372        179.667        103.732
            960            960        197.850        185.000        103.783
            992            992        203.344        190.333        103.832
           1024           1024        208.852        195.667        103.878
           1056           1056        214.351        201.000         103.92
           1088           1088        219.845        206.333         103.96
           1120           1120        225.346        211.667        103.994
           1152           1152        230.841        217.000        104.023
           1184           1184        236.340        222.333        104.049
           1216           1216        241.832        227.667         104.07
           1248           1248        247.329        233.000        104.088
           1280           1280        252.838        238.333        104.098
           1312           1312        258.339        243.667        104.104
           1344           1344        263.830        249.000        104.102
           1376           1376        269.328        254.333        104.096
           1408           1408        274.831        259.667        104.078
           1440           1440        280.321        265.000        104.054
           1472           1472        285.807        270.333        104.018
           1504           1504        291.282        275.667        103.971
           1536           1536        296.774        281.000        103.912
           1568           1568        302.240        286.333        103.845
           1600           1600        307.711        291.667        103.767
           1632           1632        313.194        297.000        103.681
           1664           1664        318.669        302.333         103.59
           1696           1696        324.125        307.667        103.497
           1728           1728        329.595        313.000        103.402
           1760           1760        335.055        318.333        103.304
           1792           1792        340.520        323.667        103.197
           1824           1824        345.989        329.000        103.065
           1856           1856        351.447        334.333        102.897
           1888           1888        356.918        339.667        102.686
           1920           1920        362.389        345.000        102.417
           1952           1952        367.863        350.333        102.082
           1984           1984        373.329        355.667        101.655
           2016           2016        378.802        361.000        101.118
           2048           2048        384.278        366.333        100.456
           2080           2080        389.767        371.667         99.656
           2112           2112        395.250        377.000        98.6974
           2144           2144        400.715        382.333        97.5508
           2176           2176        406.180        387.667        96.1823
           2208           2208        411.578        393.000        94.5234
           2240           2240        416.984        398.333         92.474
           2272           2272        422.367        403.667        89.9004
           2304           2304        427.761        409.000        86.6577
           2336           2336        433.185        414.333        82.6387
           2368           2368        438.612        419.667        77.7065
           2400           2400        444.056        425.000        71.6798
           2432           2432        449.498        430.333        64.6253
           2464           2464        454.958        435.667        56.5798
           2496           2496        460.412        441.000        47.5332
           2528           2528        465.886        446.333        37.7356
           2560           2560        471.360        451.667        27.9071
           2592           2592        476.868        457.000        19.1449
           2624           2624        482.395        462.333        12.5626
           2656           2656        487.951        467.667        8.65889
           2688           2688        493.493        473.000        7.02966
           2720           2720        499.069        478.333        6.62865
           2752           2752        504.435        483.667        6.58096
           2784           2784        509.790        489.000        6.58324
           2816           2816        515.156        494.333        6.59292
           2848           2848        520.531        499.667        6.60687
           2880           2880        525.904        505.000        6.62532
           2912           2912        531.301        510.333         6.6418
           2944           2944        536.684        515.667        6.65925
           2976           2976        542.086        521.000        6.67193
           3008           3008        547.491        526.333        6.68453
           3040           3040        552.895        531.667        6.69743
           3072           3072        558.303        537.000        6.70683
           3104           3104        563.701        542.333        6.71537
           3136           3136        569.125        547.667        6.72458

Results:
  Step	-95.8807 %
  	-8.0156 mg
  Onset	430.38 °C
  Inflect. Pt.	467.25 °C
  Endset	483.05 °C
  Midpoint	455.77 °C
  Angle Midpoint	456.42 °C

Sample:
  YN039, 8.3600 mg

________________________________________________________________________________
Not signed                                                        STARe SW 16.40

File: !$YN040.txt
                                                                04.12.2024 15:30
________________________________________________________________________________

Curve Name:
  !$YN040
  Sample Weight
Curve Values:
          Index              t             Ts             Tr          Value
                           [s]           [°C]           [°C]            [%]
              0              0         39.876         25.000        100.487
             32             32         43.905         30.333        102.114
             64             64         48.779         35.667        102.299
             96             96         53.667         41.000        102.423
            128            128         58.595         46.333        102.524
            160            160         63.605         51.667        102.612
            192            192         68.637         57.000        102.694
            224            224         73.741         62.333        102.767
            256            256         78.885         67.667        102.835
            288            288         84.025         73.000        102.897
            320            320         89.140         78.333        102.955
            352            352         93.765         83.667        103.018
            384            384         99.234         89.000        103.035
            416            416        104.806         94.333        103.072
            448            448        110.286         99.667        103.116
            480            480        115.730        105.000        103.163
            512            512        121.196        110.333        103.209
            544            544        126.643        115.667        103.257
            576            576        132.086        121.000        103.307
            608            608        137.553        126.333         103.36
            640            640        143.010        131.667        103.412
            672            672        148.476        137.000        103.466
            704            704        153.940        142.333        103.519
            736            736        159.415        147.667        103.572
            768            768        164.891        153.000        103.623
            800            800        170.381        158.333        103.675
            832            832        175.875        163.667        103.724
            864            864        181.367        169.000        103.775
            896            896        186.862        174.333        103.823
            928            928        192.362        179.667        103.867
            960            960        197.852        185.000        103.912
            992            992        203.331        190.333        103.952
           1024           1024        208.834        195.667        103.991
           1056           1056        214.338        201.000        104.024
           1088           1088        219.857        206.333        104.054
           1120           1120        225.335        211.667        104.082
           1152           1152        230.842        217.000        104.104
           1184           1184        236.340        222.333        104.124
           1216           1216        241.844        227.667        104.136
           1248           1248        247.351        233.000        104.144
           1280           1280        252.840        238.333        104.141
           1312           1312        258.340        243.667        104.136
           1344           1344        263.834        249.000        104.124
           1376           1376        269.326        254.333        104.102
           1408           1408        274.817        259.667        104.075
           1440           1440        280.308        265.000        104.039
           1472           1472        285.788        270.333        103.992
           1504           1504        291.271        275.667        103.933
           1536           1536        296.752        281.000        103.862
           1568           1568        302.226        286.333        103.781
           1600           1600        307.716        291.667         103.69
           1632           1632        313.180        297.000         103.59
           1664           1664        318.638        302.333        103.484
           1696           1696        324.113        307.667        103.378
           1728           1728        329.573        313.000        103.273
           1760           1760        335.039        318.333        103.158
           1792           1792        340.511        323.667        103.029
           1824           1824        345.967        329.000        102.876
           1856           1856        351.427        334.333        102.687
           1888           1888        356.861        339.667         102.45
           1920           1920        362.286        345.000        102.165
           1952           1952        367.763        350.333        101.821
           1984           1984        373.243        355.667        101.405
           2016           2016        378.704        361.000          100.9
           2048           2048        384.192        366.333        100.288
           2080           2080        389.660        371.667        99.5404
           2112           2112        395.103        377.000        98.6222
           2144           2144        400.569        382.333        97.4888
           2176           2176        405.999        387.667        96.0807
           2208           2208        411.399        393.000        94.3008
           2240           2240        416.833        398.333        92.0319
           2272           2272        422.258        403.667        89.1322
           2304           2304        427.698        409.000        85.4667
           2336           2336        433.138        414.333        80.9473
           2368           2368        438.579        419.667        75.5527
           2400           2400        444.022        425.000        69.2102
           2432           2432        449.472        430.333        62.0138
           2464           2464        454.925        435.667        53.9621
           2496           2496        460.385        441.000        45.0658
           2528           2528        465.858        446.333         35.553
           2560           2560        471.341        451.667        26.0387
           2592           2592        476.847        457.000        17.5499
           2624           2624        482.400        462.333        11.2473
           2656           2656        487.965        467.667        7.72595
           2688           2688        493.522        473.000        6.54188
           2720           2720        499.091        478.333        6.37157
           2752           2752        504.522        483.667        6.36068
           2784           2784        509.936        489.000        6.36317
           2816           2816        515.319        494.333        6.37469
           2848           2848        520.716        499.667        6.38837
           2880           2880        526.104        505.000        6.40403
           2912           2912        531.501        510.333        6.42108
           2944           2944        536.903        515.667        6.43813
           2976           2976        542.287        521.000        6.45287
           3008           3008        547.680        526.333        6.46565
           3040           3040        553.084        531.667        6.47836
           3072           3072        558.492        537.000        6.48802
           3104           3104        563.894        542.333        6.49369
           3136           3136        569.315        547.667         6.5001

Results:
  Step	-95.4301 %
  	-8.7700 mg
  Onset	428.50 °C
  Inflect. Pt.	466.70 °C
  Endset	482.37 °C
  Midpoint	454.18 °C
  Angle Midpoint	455.06 °C

Sample:
  YN040, 9.1900 mg

________________________________________________________________________________
Not signed                                                        STARe SW 16.40

File: !$YN041.txt
                                                                04.12.2024 15:31
________________________________________________________________________________

Curve Name:
  !$YN041
  Sample Weight
Curve Values:
          Index              t             Ts             Tr          Value
                           [s]           [°C]           [°C]            [%]
              0              0         39.911         25.000        101.324
             32             32         43.899         30.333        103.897
             64             64         48.751         35.667        104.181
             96             96         53.624         41.000         104.37
            128            128         58.565         46.333        104.522
            160            160         63.555         51.667        104.646
            192            192         68.590         57.000        104.753
            224            224         73.680         62.333        104.852
            256            256         78.762         67.667        104.946
            288            288         83.595         73.000        105.047
            320            320         89.074         78.333        105.123
            352            352         94.460         83.667        105.215
            384            384         99.842         89.000        105.311
            416            416        105.211         94.333        105.402
            448            448        110.592         99.667        105.492
            480            480        115.987        105.000        105.587
            512            512        121.406        110.333        105.679
            544            544        126.815        115.667        105.766
            576            576        132.245        121.000        105.855
            608            608        137.675        126.333        105.944
            640            640        143.115        131.667        106.031
            672            672        148.581        137.000        106.117
            704            704        154.042        142.333        106.201
            736            736        159.510        147.667        106.282
            768            768        164.972        153.000        106.364
            800            800        170.457        158.333        106.443
            832            832        175.932        163.667        106.518
            864            864        181.422        169.000        106.593
            896            896        186.911        174.333        106.666
            928            928        192.417        179.667        106.731
            960            960        197.919        185.000        106.792
            992            992        203.398        190.333         106.85
           1024           1024        208.898        195.667        106.902
           1056           1056        214.392        201.000        106.946
           1088           1088        219.893        206.333        106.983
           1120           1120        225.397        211.667        107.018
           1152           1152        230.898        217.000         107.04
           1184           1184        236.398        222.333         107.06
           1216           1216        241.898        227.667         107.07
           1248           1248        247.400        233.000        107.073
           1280           1280        252.902        238.333        107.075
           1312           1312        258.398        243.667        107.064
           1344           1344        263.874        249.000        107.048
           1376           1376        269.390        254.333        107.032
           1408           1408        274.873        259.667        107.001
           1440           1440        280.362        265.000        106.967
           1472           1472        285.849        270.333        106.924
           1504           1504        291.333        275.667         106.87
           1536           1536        296.815        281.000          106.8
           1568           1568        302.287        286.333        106.718
           1600           1600        307.759        291.667        106.626
           1632           1632        313.219        297.000        106.522
           1664           1664        318.696        302.333        106.416
           1696           1696        324.168        307.667        106.306
           1728           1728        329.637        313.000        106.195
           1760           1760        335.093        318.333        106.083
           1792           1792        340.566        323.667        105.961
           1824           1824        346.025        329.000        105.815
           1856           1856        351.480        334.333        105.635
           1888           1888        356.953        339.667        105.414
           1920           1920        362.420        345.000        105.145
           1952           1952        367.881        350.333        104.821
           1984           1984        373.340        355.667         104.43
           2016           2016        378.801        361.000         103.96
           2048           2048        384.270        366.333        103.386
           2080           2080        389.733        371.667        102.686
           2112           2112        395.201        377.000        101.822
           2144           2144        400.687        382.333         100.74
           2176           2176        406.162        387.667        99.3662
           2208           2208        411.614        393.000        97.5922
           2240           2240        416.998        398.333        95.2376
           2272           2272        422.394        403.667        92.0389
           2304           2304        427.810        409.000        87.7466
           2336           2336        433.241        414.333        82.1378
           2368           2368        438.684        419.667        75.2627
           2400           2400        444.138        425.000        67.2136
           2432           2432        449.578        430.333        58.1149
           2464           2464        455.048        435.667        48.3562
           2496           2496        460.523        441.000        38.4299
           2528           2528        466.008        446.333        29.1064
           2560           2560        471.510        451.667        21.3253
           2592           2592        477.035        457.000        15.8939
           2624           2624        482.566        462.333        12.9362
           2656           2656        488.099        467.667         11.739
           2688           2688        493.645        473.000        11.3876
           2720           2720        499.048        478.333        11.3131
           2752           2752        504.439        483.667        11.3033
           2784           2784        509.839        489.000        11.3175
           2816           2816        515.227        494.333        11.3323
           2848           2848        520.603        499.667        11.3557
           2880           2880        525.996        505.000        11.3828
           2912           2912        531.390        510.333        11.4068
           2944           2944        536.790        515.667        11.4296
           2976           2976        542.195        521.000        11.4504
           3008           3008        547.573        526.333        11.4694
           3040           3040        552.974        531.667        11.4854
           3072           3072        558.373        537.000        11.5007
           3104           3104        563.779        542.333        11.5109
           3136           3136        569.187        547.667        11.5175

Results:
  Step	-93.4414 %
  	-5.3355 mg
  Onset	424.35 °C
  Inflect. Pt.	456.93 °C
  Endset	475.32 °C
  Midpoint	449.03 °C
  Angle Midpoint	449.83 °C

Sample:
  YN041, 5.7100 mg

________________________________________________________________________________
Not signed                                                        STARe SW 16.40