Folder: AutoPloyPlot/Example Date/TGA Me

Note: README
AutoPolyPlot: automatically plotting polymer analysis results

File: !$YN019-1204.txt
                                                                05.12.2024 12:05
________________________________________________________________________________

Curve Name:
  !$YN019-1204
  Sample Weight
Curve Values:
          Index              t             Ts             Tr          Value
                           [s]           [°C]           [°C]            [%]
              0              0         33.965         25.000        99.7845
             32             32         38.223         30.333        101.089
             64             64         43.300         35.667        101.222
             96             96         48.353         41.000        101.317
            128            128         53.456         46.333        101.392
            160            160         58.575         51.667         101.46
            192            192         63.721         57.000         101.52
            224            224         68.833         62.333        101.575
            256            256         74.021         67.667        101.624
            288            288         79.186         73.000         101.67
            320            320         84.323         78.333        101.709
            352            352         88.873         83.667        101.742
            384            384         94.627         89.000        101.728
            416            416        100.175         94.333        101.738
            448            448        105.658         99.667        101.755
            480            480        111.132        105.000        101.778
            512            512        116.581        110.333        101.801
            544            544        122.037        115.667        101.831
            576            576        127.498        121.000        101.863
            608            608        132.936        126.333        101.895
            640            640        138.406        131.667        101.929
            672            672        143.874        137.000        101.967
            704            704        149.341        142.333        102.004
            736            736        154.825        147.667        102.044
            768            768        160.300        153.000        102.084
            800            800        165.802        158.333        102.122
            832            832        171.288        163.667        102.161
            864            864        176.790        169.000        102.202
            896            896        182.287        174.333        102.243
            928            928        187.777        179.667        102.279
            960            960        193.281        185.000        102.313
            992            992        198.779        190.333        102.343
           1024           1024        204.271        195.667        102.366
           1056           1056        209.784        201.000        102.385
           1088           1088        215.282        206.333        102.399
           1120           1120        220.801        211.667        102.409
           1152           1152        226.309        217.000        102.411
           1184           1184        231.824        222.333        102.411
           1216           1216        237.327        227.667        102.404
           1248           1248        242.854        233.000        102.393
           1280           1280        248.390        238.333        102.377
           1312           1312        253.932        243.667        102.351
           1344           1344        259.471        249.000         102.31
           1376           1376        265.004        254.333        102.251
           1408           1408        270.539        259.667        102.172
           1440           1440        276.060        265.000        102.072
           1472           1472        281.557        270.333        101.952
           1504           1504        287.103        275.667        101.796
           1536           1536        292.640        281.000        101.595
           1568           1568        298.165        286.333        101.362
           1600           1600        303.684        291.667          101.1
           1632           1632        309.224        297.000        100.805
           1664           1664        314.772        302.333        100.457
           1696           1696        320.376        307.667        100.023
           1728           1728        326.064        313.000        99.4184
           1760           1760        331.829        318.333        98.5716
           1792           1792        337.647        323.667         97.454
           1824           1824        343.462        329.000        96.1063
           1856           1856        349.234        334.333        94.5903
           1888           1888        354.955        339.667        92.9444
           1920           1920        360.625        345.000        91.1918
           1952           1952        366.268        350.333        89.3326
           1984           1984        371.892        355.667        87.3558
           2016           2016        377.526        361.000        85.2467
           2048           2048        383.136        366.333        82.9907
           2080           2080        388.800        371.667        80.5374
           2112           2112        394.452        377.000        77.8506
           2144           2144        400.085        382.333        74.8935
           2176           2176        405.773        387.667        71.5956
           2208           2208        411.495        393.000        67.8825
           2240           2240        417.217        398.333        63.6658
           2272           2272        423.103        403.667        58.7957
           2304           2304        429.089        409.000         53.171
           2336           2336        434.960        414.333        46.8372
           2368           2368        440.568        419.667        39.7842
           2400           2400        445.423        425.000        32.1764
           2432           2432        450.716        430.333        24.4117
           2464           2464        455.805        435.667        17.3045
           2496           2496        461.026        441.000        11.5723
           2528           2528        465.236        446.333          7.959
           2560           2560        469.541        451.667        6.50919
           2592           2592        473.916        457.000        6.22078
           2624           2624        478.718        462.333        6.17343
           2656           2656        483.770        467.667        6.15595
           2688           2688        488.955        473.000        6.14487
           2720           2720        494.240        478.333        6.14023
           2752           2752        499.595        483.667        6.13664
           2784           2784        504.964        489.000        6.13444
           2816           2816        510.351        494.333        6.13403
           2848           2848        515.778        499.667        6.13236
           2880           2880        521.186        505.000        6.13063
           2912           2912        526.611        510.333        6.12649
           2944           2944        532.048        515.667         6.1213
           2976           2976        537.473        521.000        6.11184
           3008           3008        542.915        526.333        6.09846
           3040           3040        548.343        531.667        6.07911
           3072           3072        553.796        537.000        6.05851
           3104           3104        559.250        542.333        6.02982
           3136           3136        564.692        547.667        5.99984

Results:
Sample:
  YN019-1204, 10.7500 mg

________________________________________________________________________________
Not signed                                                        STARe SW 16.40

File: !$YN019.txt
                                                                04.12.2024 12:58
________________________________________________________________________________

Curve Name:
  !$YN019
  Sample Weight
Curve Values:
          Index              t             Ts             Tr          Value
                           [s]           [°C]           [°C]            [%]
              0              0         39.933         25.000        99.8721
             32             32         43.961         30.333        102.073
             64             64         48.861         35.667        102.277
             96             96         53.770         41.000        102.422
            128            128         58.727         46.333        102.546
            160            160         63.728         51.667        102.657
            192            192         68.791         57.000        102.756
            224            224         73.866         62.333        102.844
            256            256         79.003         67.667        102.926
            288            288         84.158         73.000        103.002
            320            320         89.183         78.333        103.076
            352            352         94.312         83.667        103.113
            384            384         99.814         89.000        103.154
            416            416        105.230         94.333        103.207
            448            448        110.649         99.667        103.267
            480            480        116.055        105.000        103.328
            512            512        121.484        110.333         103.39
            544            544        126.914        115.667        103.459
            576            576        132.345        121.000        103.529
            608            608        137.772        126.333        103.596
            640            640        143.225        131.667        103.662
            672            672        148.679        137.000        103.729
            704            704        154.148        142.333        103.794
            736            736        159.611        147.667        103.859
            768            768        165.077        153.000         103.92
            800            800        170.574        158.333        103.989
            832            832        176.056        163.667        104.055
            864            864        181.548        169.000        104.123
            896            896        187.047        174.333        104.192
            928            928        192.556        179.667        104.256
            960            960        198.042        185.000        104.316
            992            992        203.529        190.333        104.368
           1024           1024        209.018        195.667        104.415
           1056           1056        214.523        201.000        104.453
           1088           1088        220.017        206.333        104.487
           1120           1120        225.524        211.667         104.52
           1152           1152        231.037        217.000         104.55
           1184           1184        236.549        222.333        104.571
           1216           1216        242.064        227.667        104.587
           1248           1248        247.564        233.000        104.587
           1280           1280        253.083        238.333        104.577
           1312           1312        258.590        243.667        104.555
           1344           1344        264.109        249.000        104.516
           1376           1376        269.609        254.333         104.45
           1408           1408        275.120        259.667        104.357
           1440           1440        280.631        265.000        104.228
           1472           1472        286.125        270.333        104.066
           1504           1504        291.608        275.667        103.873
           1536           1536        297.118        281.000        103.632
           1568           1568        302.636        286.333        103.312
           1600           1600        308.166        291.667        102.895
           1632           1632        313.717        297.000        102.378
           1664           1664        319.285        302.333        101.735
           1696           1696        324.892        307.667         100.92
           1728           1728        330.524        313.000        99.8703
           1760           1760        336.204        318.333        98.5508
           1792           1792        341.884        323.667        96.9956
           1824           1824        347.554        329.000        95.2421
           1856           1856        353.192        334.333        93.3179
           1888           1888        358.847        339.667        91.2375
           1920           1920        364.470        345.000        89.0121
           1952           1952        370.057        350.333        86.6583
           1984           1984        375.566        355.667        84.1834
           2016           2016        381.137        361.000        81.5813
           2048           2048        386.730        366.333        78.8265
           2080           2080        392.274        371.667        75.9034
           2112           2112        397.848        377.000         72.784
           2144           2144        403.425        382.333        69.4315
           2176           2176        409.040        387.667        65.7929
           2208           2208        414.691        393.000        61.8097
           2240           2240        420.357        398.333        57.4261
           2272           2272        426.042        403.667        52.5725
           2304           2304        431.721        409.000        47.2929
           2336           2336        437.356        414.333        41.6288
           2368           2368        442.942        419.667        35.6117
           2400           2400        448.317        425.000        29.4817
           2432           2432        453.533        430.333         23.638
           2464           2464        458.543        435.667        18.5296
           2496           2496        463.516        441.000         14.612
           2528           2528        468.270        446.333        12.1212
           2560           2560        472.891        451.667        11.0064
           2592           2592        477.647        457.000          10.76
           2624           2624        482.669        462.333        10.6922
           2656           2656        487.846        467.667        10.6505
           2688           2688        493.122        473.000        10.6251
           2720           2720        498.449        478.333        10.6054
           2752           2752        503.823        483.667        10.5895
           2784           2784        509.214        489.000        10.5721
           2816           2816        514.627        494.333        10.5516
           2848           2848        520.050        499.667        10.5231
           2880           2880        525.475        505.000        10.4848
           2912           2912        530.898        510.333        10.4305
           2944           2944        536.361        515.667        10.3688
           2976           2976        541.810        521.000        10.2916
           3008           3008        547.258        526.333        10.1971
           3040           3040        552.688        531.667        10.0953
           3072           3072        558.133        537.000        9.99168
           3104           3104        563.564        542.333        9.88895
           3136           3136        569.002        547.667        9.78684

Results:
  Step	-91.4880 %
  	-5.9284 mg
  Onset	385.85 °C
  Inflect. Pt.	447.49 °C
  Endset	464.23 °C
  Midpoint	420.18 °C
  Angle Midpoint	421.41 °C

Sample:
  YN019, 6.4800 mg

________________________________________________________________________________
Not signed                                                        STARe SW 16.40

File: !$YN038.txt
                                                                04.12.2024 12:57
________________________________________________________________________________

Curve Name:
  !$YN038
  Sample Weight
Curve Values:
          Index              t             Ts             Tr          Value
                           [s]           [°C]           [°C]            [%]
              0              0         39.982         25.000        99.3525
             32             32         43.979         30.333        100.675
             64             64         48.820         35.667        100.818
             96             96         53.681         41.000        100.914
            128            128         58.591         46.333        100.994
            160            160         63.534         51.667        101.064
            192            192         68.515         57.000        101.129
            224            224         73.559         62.333        101.185
            256            256         78.542         67.667        101.242
            288            288         83.189         73.000        101.294
            320            320         88.713         78.333        101.313
            352            352         94.191         83.667        101.337
            384            384         99.602         89.000        101.365
            416            416        105.005         94.333        101.394
            448            448        110.422         99.667        101.421
            480            480        115.841        105.000        101.452
            512            512        121.256        110.333        101.486
            544            544        126.692        115.667        101.518
            576            576        132.118        121.000        101.558
            608            608        137.556        126.333         101.59
            640            640        143.013        131.667        101.625
            672            672        148.464        137.000        101.663
            704            704        153.948        142.333        101.702
            736            736        159.401        147.667        101.748
            768            768        164.897        153.000        101.787
            800            800        170.360        158.333        101.825
            832            832        175.849        163.667        101.861
            864            864        181.346        169.000        101.898
            896            896        186.825        174.333        101.931
            928            928        192.346        179.667         101.96
            960            960        197.832        185.000        101.982
            992            992        203.299        190.333        102.002
           1024           1024        208.799        195.667        102.019
           1056           1056        214.302        201.000        102.033
           1088           1088        219.787        206.333         102.04
           1120           1120        225.296        211.667        102.046
           1152           1152        230.806        217.000        102.041
           1184           1184        236.305        222.333        102.038
           1216           1216        241.800        227.667        102.023
           1248           1248        247.312        233.000        102.002
           1280           1280        252.825        238.333        101.971
           1312           1312        258.318        243.667        101.934
           1344           1344        263.821        249.000        101.883
           1376           1376        269.307        254.333        101.825
           1408           1408        274.805        259.667        101.755
           1440           1440        280.267        265.000        101.674
           1472           1472        285.777        270.333         101.58
           1504           1504        291.273        275.667        101.469
           1536           1536        296.784        281.000        101.345
           1568           1568        302.278        286.333        101.205
           1600           1600        307.783        291.667        101.058
           1632           1632        313.277        297.000        100.903
           1664           1664        318.768        302.333         100.74
           1696           1696        324.262        307.667        100.562
           1728           1728        329.761        313.000        100.355
           1760           1760        335.260        318.333        100.102
           1792           1792        340.786        323.667        99.7817
           1824           1824        346.311        329.000        99.3744
           1856           1856        351.863        334.333        98.8611
           1888           1888        357.397        339.667        98.2332
           1920           1920        362.911        345.000        97.4858
           1952           1952        368.318        350.333        96.6195
           1984           1984        373.838        355.667          95.63
           2016           2016        379.371        361.000        94.5248
           2048           2048        384.867        366.333         93.291
           2080           2080        390.373        371.667        91.9054
           2112           2112        395.877        377.000        90.3254
           2144           2144        401.419        382.333        88.4868
           2176           2176        406.955        387.667        86.2906
           2208           2208        412.388        393.000        83.6023
           2240           2240        417.778        398.333        80.2413
           2272           2272        423.077        403.667        76.0309
           2304           2304        428.160        409.000        70.8129
           2336           2336        433.457        414.333        64.5229
           2368           2368        438.838        419.667        57.2116
           2400           2400        444.255        425.000        48.9582
           2432           2432        449.686        430.333        39.9825
           2464           2464        455.133        435.667        30.7899
           2496           2496        460.611        441.000        22.0947
           2528           2528        466.104        446.333        14.8013
           2560           2560        471.635        451.667        9.65691
           2592           2592        477.514        457.000        6.82847
           2624           2624        482.942        462.333        5.80455
           2656           2656        488.128        467.667        5.59794
           2688           2688        493.400        473.000        5.57352
           2720           2720        498.730        478.333        5.57263
           2752           2752        504.070        483.667        5.57653
           2784           2784        509.419        489.000         5.5845
           2816           2816        514.793        494.333        5.58757
           2848           2848        520.178        499.667        5.59587
           2880           2880        525.581        505.000        5.60341
           2912           2912        530.977        510.333        5.61109
           2944           2944        536.369        515.667        5.61876
           2976           2976        541.775        521.000        5.62611
           3008           3008        547.198        526.333        5.63397
           3040           3040        552.603        531.667        5.63666
           3072           3072        558.034        537.000        5.63933
           3104           3104        563.459        542.333        5.63787
           3136           3136        568.891        547.667        5.63388

Results:
  Step	-93.2662 %
  	-10.4178 mg
  Onset	415.06 °C
  Inflect. Pt.	450.36 °C
  Endset	469.94 °C
  Midpoint	441.32 °C
  Angle Midpoint	442.39 °C

Sample:
  YN038, 11.1700 mg

________________________________________________________________________________
Not signed                                                        STARe SW 16.40